File: Data/dataset_for_feature_selections.csv
,Capacity dV CCCT,Charge time dV CCCT,Coefficient of skewness CCCV,Discharge_Q,Energy dV CCCT,Entropy dV CCCT,Entropy dV CCCT Shannon,Frechet Distance CC curve,Group,Hausdorff Distance CC curve,Kurtosis coefficient CCCV,Lagged Cumulated Discharge Capacity,Lagged Cumulated Discharge Energy,Lagged Pseudo Resistace,Lagged cycle time,Mean DV CCCV,Recovery Voltage,SOH_discharge_capacity,Slope CCCV-CCCT
0,578.29,0.0049537,0.00969316,739.111,578.29,0.125544,8.66534,0.846921,8001.0,6.41894,0.126383,0.0,0.0,0.0,0.0,0.482614,2.69982,1.0,18.2203
1,569.006,0.0049074,0.0107148,730.193,569.006,0.128116,8.66534,0.846906,8001.0,6.41326,0.128252,739.111,2315.7,0.0219123,0.0823495,0.480303,2.69986,0.987934,18.3511
2,564.408,0.00488425,0.0119508,725.747,564.408,0.12764,8.69,0.846898,8001.0,6.42937,0.13064,1469.3,4602.52,0.0183037,0.163667,0.478651,2.70002,0.981919,18.4378
3,561.234,0.00486111,0.012619,722.843,561.234,0.129405,8.64024,0.84689,8001.0,6.43804,0.132538,2195.05,6876.37,0.0176018,0.244478,0.477485,2.69996,0.97799,18.4843
4,557.071,0.00484953,0.0136186,718.367,557.071,0.128429,8.64386,0.846886,8001.0,6.43368,0.133055,2917.89,9141.8,0.018745,0.324957,0.476238,2.70016,0.971934,18.6273
5,553.534,0.00481481,0.014186,714.979,553.534,0.127097,8.62571,0.846874,8001.0,6.40925,0.133054,3636.26,11394.5,0.018044,0.404914,0.476186,2.69984,0.96735,18.6948
6,550.424,0.00479166,0.0143205,711.62,550.424,0.129641,8.60733,0.846866,8001.0,6.37983,0.131989,4351.24,13637.3,0.017542,0.484497,0.476452,2.69996,0.962806,18.8099
7,546.539,0.00478009,0.0153051,709.532,546.539,0.131136,8.62571,0.846862,8001.0,6.39388,0.134088,5062.86,15870.2,0.0176422,0.563708,0.474275,2.7002,0.959981,18.8051
8,543.025,0.00475694,0.0156565,705.848,543.025,0.126558,8.62205,0.846853,8001.0,6.3723,0.133689,5772.39,18097.3,0.0190453,0.6426,0.47481,2.70024,0.954996,18.8964
9,539.725,0.00475694,0.0164566,702.545,539.725,0.126812,8.62205,0.846853,8001.0,6.39484,0.135978,6478.24,20313.9,0.018243,0.721056,0.471789,2.700084,0.950527,18.9385
10,536.839,0.00475694,0.0168861,699.416,536.839,0.128481,8.63662,0.846853,8001.0,6.38565,0.135019,7180.78,22520.8,0.018143,0.799139,0.473491,2.69992,0.946293,18.9385
11,533.748,0.00474541,0.017606,696.284,533.748,0.129226,8.61471,0.846849,8001.0,6.40595,0.137868,7880.2,24718.6,0.0185448,0.876869,0.470578,2.6998,0.942056,18.9507
12,531.074,0.00474541,0.0180004,693.267,531.074,0.128835,8.61102,0.846849,8001.0,6.39063,0.136639,8576.48,26907.3,0.018745,0.954242,0.471049,2.69992,0.937975,19.0097
13,527.984,0.00474541,0.0188171,690.369,527.984,0.129238,8.59991,0.846849,8001.0,6.40931,0.138601,9269.75,29087.1,0.018845,1.03127,0.469226,2.70004,0.934053,18.9759
14,525.312,0.00474543,0.019567,687.619,525.312,0.127637,8.62205,0.846849,8001.0,6.41039,0.138955,9960.12,31258.4,0.0185448,1.10796,0.468919,2.69996,0.930333,18.959
15,520.234,0.00478009,0.0211962,681.826,520.234,0.128622,8.62571,0.846862,8001.0,6.45391,0.141053,10647.7,33421.5,0.0195473,1.18433,0.466681,2.700078,0.922495,18.8554
16,514.248,0.00481482,0.0222197,675.887,514.248,0.132138,8.62936,0.846874,8001.0,6.484,0.142115,11329.6,35568.1,0.0195615,1.26004,0.465623,2.7,0.91446,18.7114
17,511.41,0.00484954,0.022906,672.743,511.41,0.126885,8.633,0.846886,8001.0,6.5042,0.142269,12005.5,37697,0.0212663,1.33505,0.464678,2.70022,0.910206,18.652
18,508.326,0.00486111,0.0235795,669.732,508.326,0.129588,8.66178,0.84689,8001.0,6.53325,0.14418,12678.2,39816.8,0.0218218,1.40971,0.46347,2.70016,0.906132,18.5172
19,505.625,0.00484953,0.0231884,667.418,505.625,0.129394,8.65464,0.846886,8001.0,6.51978,0.143623,13347.9,41927.5,0.02147,1.48402,0.463764,2.70004,0.903002,18.5282
20,502.989,0.00490741,0.023779,663.953,502.989,0.127805,8.66534,0.846906,8001.0,6.5538,0.143651,14015.3,44030.4,0.020067,1.55803,0.462869,2.700186,0.898313,18.4081
21,500.28,0.00491898,0.0233721,661.44,500.28,0.127894,8.65464,0.84691,8001.0,6.56315,0.143564,14679.3,46124,0.0227003,1.63167,0.463652,2.700146,0.894913,18.4056
22,497.445,0.00494213,0.0241505,658.232,497.445,0.131247,8.65105,0.846917,8001.0,6.59508,0.145446,15340.7,48209.1,0.0212973,1.70499,0.461268,2.69995,0.890573,18.2224
23,495.149,0.00491898,0.0234468,656.302,495.149,0.129758,8.65821,0.84691,8001.0,6.5639,0.143773,15999,50285.6,0.023182,1.77798,0.464043,2.70011,0.887961,18.2673
24,492.305,0.00498843,0.0240983,652.781,492.305,0.128174,8.66888,0.846932,8001.0,6.60882,0.144285,16655.3,52355.1,0.021979,1.8507,0.462003,2.70012,0.883198,18.0536
25,490.013,0.0049537,0.0232957,651.274,490.013,0.129215,8.6865,0.846921,8001.0,6.56246,0.142119,17308.1,54416.1,0.0241738,1.92306,0.462897,2.7,0.881159,18.2445
26,487.547,0.00496527,0.0233328,648.85,487.547,0.130444,8.6865,0.846925,8001.0,6.58972,0.143819,17959.3,56470.5,0.0220685,1.99519,0.462005,2.69988,0.877879,18.1618
27,484.485,0.00506945,0.0240328,645.022,484.485,0.129346,8.72792,0.846959,8001.0,6.65893,0.144154,18608.2,58517.2,0.0227708,2.06704,0.461647,2.69996,0.8727,17.7895
28,483.022,0.00498842,0.0232835,644.169,483.022,0.130422,8.65821,0.846933,8001.0,6.59304,0.142924,19253.2,60555.1,0.0243753,2.13849,0.461992,2.69996,0.871546,18.0377
29,480.773,0.00499999,0.0230668,642.089,480.773,0.127015,8.6865,0.846936,8001.0,6.5977,0.142442,19897.4,62588.6,0.0228708,2.2098,0.464023,2.69996,0.868732,17.996
30,478.323,0.00509259,0.0232157,638.773,478.323,0.129048,8.72792,0.846966,8001.0,6.65684,0.142585,20539.5,64614.9,0.023673,2.28086,0.463365,2.7,0.864245,17.7088
31,476.26,0.00502314,0.022731,637.819,476.26,0.129299,8.6865,0.846944,8001.0,6.59949,0.141529,21178.2,66633.7,0.0250763,2.35158,0.463061,2.70004,0.862955,17.977
32,473.217,0.00511574,0.0232627,632.203,473.217,0.131412,8.74483,0.846973,8001.0,6.68708,0.143668,21816.1,68646.6,0.0242738,2.42213,0.463081,2.7001,0.855356,17.582
33,471.542,0.00506944,0.0224501,631.744,471.542,0.129583,8.69,0.846959,8001.0,6.63092,0.141551,22448.3,70645.6,0.0272255,2.49215,0.464048,2.70006,0.854736,17.75
34,466.611,0.00513888,0.0226109,629.52,466.611,0.128092,8.71081,0.84698,8001.0,6.69365,0.142752,23080,72642.1,0.0233155,2.56204,0.464493,2.70014,0.851726,17.5263
35,466.413,0.00517361,0.0224112,625.491,466.413,0.127699,8.74483,0.846991,8001.0,6.68754,0.140536,23709.5,74632.1,0.0234155,2.63156,0.464295,2.70002,0.846275,17.4631
36,465.153,0.00509259,0.022107,625.258,465.153,0.131299,8.7039,0.846966,8001.0,6.63794,0.140725,24335,76612.7,0.0268238,2.70079,0.464566,2.70002,0.84596,17.6696
37,463.089,0.00509258,0.0220126,623.553,463.089,0.12798,8.73471,0.846966,8001.0,6.63395,0.14054,24960.3,78590.1,0.0239163,2.76994,0.464397,2.6999,0.843653,17.6931
38,460.222,0.00517361,0.0220132,620.477,460.222,0.129685,8.73809,0.846991,8001.0,6.70263,0.141783,25583.8,80561.4,0.0249188,2.83887,0.46354,2.69998,0.839492,17.3703
39,459.02,0.00511574,0.0218102,619.519,459.02,0.130049,8.72792,0.846973,8001.0,6.65204,0.140737,26204.3,82525.6,0.0279265,2.90749,0.464023,2.69987,0.838194,17.6289
40,456.311,0.00510416,0.0215263,617.608,456.311,0.132919,8.71081,0.84697,8001.0,6.64386,0.14058,26823.8,84484.4,0.027589,2.97597,0.464041,2.699995,0.835609,17.6923
41,454.245,0.00509258,0.0210402,615.726,454.245,0.127913,8.71081,0.846966,8001.0,6.62105,0.139133,27441.4,86435.6,0.0272888,3.04419,0.466524,2.7002,0.833063,17.6932
42,451.587,0.00518519,0.0213475,612.744,451.587,0.128517,8.74147,0.846994,8001.0,6.69339,0.140239,28057.2,88380.2,0.0273888,3.11218,0.465796,2.70012,0.829029,17.3702
43,450.351,0.00509259,0.0209831,612.35,450.351,0.128149,8.70736,0.846966,8001.0,6.63266,0.140216,28669.9,90318.5,0.0309972,3.17986,0.464732,2.7002,0.828495,17.6931
44,446.853,0.00511574,0.0206037,608.877,446.853,0.130198,8.69697,0.846973,8001.0,6.63667,0.138865,29282.2,92251.8,0.0284915,3.24745,0.466786,2.70003,0.823796,17.6445
45,441.94,0.00515046,0.0206295,604.287,441.94,0.13,8.70044,0.846984,8001.0,6.66634,0.139777,29891.1,94173.5,0.0298957,3.31462,0.465471,2.69996,0.817586,17.4636
46,440.459,0.00511573,0.0201998,603.207,440.459,0.128227,8.73471,0.846973,8001.0,6.63564,0.138629,30495.4,96081.8,0.0328808,3.38128,0.468752,2.69984,0.816125,17.5741
47,438.031,0.0052662,0.0205555,599.824,438.031,0.126608,8.77149,0.847019,8001.0,6.73759,0.13933,31098.6,97984.6,0.031076,3.44777,0.467239,2.70014,0.811548,17.0883
48,437.982,0.00516203,0.0204198,599.862,437.982,0.129814,8.75154,0.846987,8001.0,6.66915,0.139205,31698.4,99884.1,0.0337535,3.51395,0.466591,2.70022,0.8116,17.5254
49,435.716,0.00512731,0.0201455,598.159,435.716,0.128194,8.72451,0.846977,8001.0,6.64235,0.138934,32298.3,101778,0.0305455,3.58008,0.46654,2.7001,0.809295,17.5736
50,431.406,0.0053125,0.0205377,594.28,431.406,0.132071,8.75154,0.847032,8001.0,6.77439,0.139937,32896.5,103666,0.0311475,3.64602,0.466081,2.69998,0.804047,17.0075
51,431.808,0.00513888,0.0200251,594.468,431.808,0.130207,8.7211,0.84698,8001.0,6.6411,0.138231,33490.7,105549,0.035458,3.71151,0.466926,2.70006,0.804301,17.5496
52,429.957,0.00512731,0.0199015,592.857,429.957,0.130057,8.72792,0.846977,8001.0,6.64861,0.139282,34085.2,107426,0.0324505,3.777,0.466758,2.70002,0.802122,17.5502
53,427.914,0.00516204,0.020007,590.425,427.914,0.131146,8.72792,0.846987,8001.0,6.66346,0.138728,34678.1,109297,0.03215,3.8423,0.466489,2.69973,0.798832,17.4401
54,426.463,0.00512731,0.019985,589.447,426.463,0.12864,8.7039,0.846977,8001.0,6.65575,0.139896,35268.5,111163,0.0365607,3.90734,0.466495,2.699775,0.797508,17.5735
55,425.027,0.00511573,0.0196072,588.117,425.027,0.130472,8.72792,0.846973,8001.0,6.62513,0.137777,35857.9,113022,0.0336533,3.97224,0.468405,2.6999,0.795709,17.6133
56,422.203,0.00524306,0.0200945,585.56,422.203,0.129826,8.73809,0.847012,8001.0,6.72442,0.139267,36446.1,114876,0.033553,4.03697,0.467308,2.70001,0.79225,17.1941
57,422.782,0.00512731,0.0197332,585.746,422.782,0.128208,8.71425,0.846977,8001.0,6.63925,0.13835,37031.6,116728,0.0391715,4.10141,0.46737,2.70021,0.792501,17.6048
58,420.932,0.00510416,0.0194823,584.152,420.932,0.128817,8.69,0.84697,8001.0,6.61968,0.137807,37617.4,118575,0.0343603,4.16587,0.468791,2.69977,0.790344,17.6139
59,416.824,0.0052662,0.0198765,581.276,416.824,0.133564,8.74147,0.847019,8001.0,6.73438,0.138991,38201.5,120415,0.0347608,4.23014,0.466864,2.69977,0.786453,17.1111
60,418.272,0.00512731,0.0196582,581.655,418.272,0.12871,8.72451,0.846977,8001.0,6.64103,0.138443,38782.8,122254,0.0405758,4.29406,0.468502,2.69989,0.786965,17.5346
61,416.433,0.00510416,0.0192411,580.033,416.433,0.130217,8.71425,0.84697,8001.0,6.60808,0.137142,39364.4,124088,0.035563,4.35803,0.468028,2.69985,0.784772,17.6766
62,413.396,0.0053125,0.0202653,577.634,413.396,0.128014,8.77149,0.847032,8001.0,6.75467,0.138447,39944.5,125915,0.0359635,4.4218,0.46667,2.699935,0.781525,16.9547
63,414.392,0.00516203,0.0196619,577.589,414.392,0.127393,8.7039,0.846987,8001.0,6.62911,0.136027,40522.1,127749,0.0406723,4.48535,0.467928,2.70002,0.781465,17.5176
64,412.955,0.00515045,0.0199365,576.417,412.955,0.130735,8.7039,0.846984,8001.0,6.67112,0.139819,41099.7,129574,0.0350575,4.54886,0.466632,2.70018,0.779879,17.4637
65,407.628,0.0053125,0.019997,573.098,407.628,0.132398,8.76155,0.847032,8001.0,6.75505,0.138352,41676.1,131394,0.0352578,4.61224,0.467375,2.7001,0.775388,16.9773
66,407.628,0.0053125,0.019997,573.098,407.628,0.132398,8.76155,0.847032,8001.0,6.75505,0.138352,42249.2,133213,0.041775,4.6752,0.467375,2.7001,0.775388,16.9773
67,409.257,0.00513889,0.0197179,574.971,409.257,0.128855,8.73132,0.84698,8001.0,6.64573,0.138246,42822.3,135031,0.041775,4.73816,0.467888,2.69985,0.777923,17.4951
68,407.599,0.00512731,0.0196626,572.038,407.599,0.129211,8.69349,0.846977,8001.0,6.64616,0.138953,43397.3,136846,0.0257343,4.80124,0.466866,2.70014,0.773954,17.5501
69,406.162,0.00512731,0.0194386,570.437,406.162,0.128006,8.7211,0.846977,8001.0,6.61604,0.136421,43969.3,138651,0.03606,4.86406,0.469296,2.70014,0.771788,17.5969
70,403.495,0.00519676,0.0197757,568.268,403.495,0.129629,8.74819,0.846998,8001.0,6.68118,0.13816,44539.8,140448,0.0367622,4.92669,0.468576,2.699832,0.768853,17.3238
71,402.873,0.00511573,0.0196453,567.793,402.873,0.128107,8.71425,0.846973,8001.0,6.63405,0.138605,45108,142243,0.0422328,4.98907,0.46754,2.70019,0.768211,17.5976
72,401.842,0.00511573,0.0197178,566.753,401.842,0.129267,8.69349,0.846973,8001.0,6.65654,0.140153,45675.8,144031,0.0377208,5.05137,0.467179,2.69979,0.766804,17.5585
73,398.351,0.00519676,0.019533,564.227,398.351,0.129988,8.73471,0.846998,8001.0,6.67325,0.137543,46242.6,145815,0.0380223,5.11355,0.468426,2.70007,0.763386,17.3239
74,399.162,0.00510416,0.0193372,564.318,399.162,0.1308,8.71081,0.84697,8001.0,6.61856,0.137663,46806.8,147596,0.04494,5.17543,0.468684,2.69999,0.763509,17.6061
75,397.729,0.00511573,0.0194646,563.046,397.729,0.129059,8.72451,0.846973,8001.0,6.63383,0.138458,47371.1,149372,0.0388245,5.23731,0.4676,2.70007,0.761789,17.6211
76,392.806,0.00521991,0.0194339,560.014,392.806,0.131015,8.75822,0.847005,8001.0,6.67398,0.136795,47934.2,151142,0.0394253,5.29904,0.466948,2.70015,0.757685,17.3238
77,395.476,0.00513888,0.0196427,560.65,395.476,0.127606,8.7211,0.84698,8001.0,6.6412,0.137946,48494.2,152911,0.0460428,5.36038,0.467968,2.69999,0.758546,17.6197
78,574.521,0.00488426,0.010124,735.12,574.521,0.128448,8.67243,0.846898,8003.0,6.38491,0.127078,0.0,0.0,0.0,0.0,0.481261,2.69989,1.0,18.5373
79,565.668,0.00484953,0.0109972,726.687,565.668,0.128631,8.64386,0.846886,8003.0,6.38853,0.129058,735.12,2301.35,0.0213723,0.0818328,0.479757,2.69993,0.988529,18.6038
80,561.459,0.00481481,0.0118743,722.733,561.459,0.128423,8.633,0.846874,8003.0,6.38528,0.130577,1461.81,4575.11,0.0188653,0.162694,0.478857,2.70001,0.98315,18.7127
81,558.815,0.00480324,0.0127455,720.207,558.815,0.12672,8.65464,0.84687,8003.0,6.40454,0.132683,2184.54,6837.2,0.018565,0.243097,0.477387,2.69974,0.979714,18.716
82,554.553,0.00478009,0.0138527,716.05,554.553,0.128487,8.63662,0.846862,8003.0,6.39217,0.133488,2904.75,9092.26,0.0196463,0.323219,0.47567,2.69998,0.97406,18.8399
83,551.454,0.00475694,0.0146004,713.084,551.454,0.128301,8.60363,0.846854,8003.0,6.37134,0.13349,3620.8,11334.9,0.0180428,0.402855,0.474508,2.70018,0.970025,18.9566
84,548.726,0.00473379,0.0149628,710.058,548.726,0.128036,8.62936,0.846845,8003.0,6.36322,0.133845,4333.88,13568.7,0.017641,0.482154,0.475238,2.70022,0.965909,18.9899
85,546.92,0.00475694,0.0155762,708.508,546.92,0.130225,8.61102,0.846854,8003.0,6.37439,0.133748,5043.94,15793.8,0.0177412,0.561129,0.474923,2.69998,0.963799,18.9818
86,543.872,0.00473379,0.0160178,705.573,543.872,0.12841,8.61102,0.846845,8003.0,6.36662,0.134385,5752.45,18014.8,0.019143,0.639924,0.474497,2.69998,0.959806,19.0491
87,541.405,0.00472222,0.0167033,703.213,541.405,0.12808,8.62936,0.846841,8003.0,6.37525,0.136075,6458.02,20227,0.01764,0.718363,0.472298,2.70014,0.956596,19.0957
88,538.935,0.00469907,0.0171384,700.892,538.935,0.129304,8.63662,0.846832,8003.0,6.36345,0.136787,7161.23,22432.5,0.0167375,0.796531,0.471067,2.69994,0.95344,19.164
89,536.882,0.00469911,0.0179106,698.67,536.882,0.127905,8.62205,0.846833,8003.0,6.37292,0.137446,7862.12,24631.1,0.0173382,0.874433,0.471257,2.70022,0.950417,19.1553
90,534.61,0.00468754,0.0181205,696.346,534.61,0.128948,8.60733,0.846828,8003.0,6.35615,0.136812,8560.79,26823.1,0.01774,0.952079,0.471647,2.70002,0.947255,19.2025
91,532.343,0.00469911,0.0188663,693.932,532.343,0.129618,8.59246,0.846832,8003.0,6.38431,0.138636,9257.14,29008.2,0.0173382,1.02946,0.470244,2.69998,0.943972,19.1808
92,529.873,0.00468756,0.0193914,691.478,529.873,0.127758,8.59246,0.846828,8003.0,6.37191,0.13867,9951.07,31185.9,0.0174385,1.10656,0.469631,2.70014,0.940634,19.211
93,525.161,0.0046875,0.0210095,686.404,525.161,0.130083,8.56605,0.846828,8003.0,6.36788,0.139011,10642.6,33356.2,0.0188428,1.18338,0.467715,2.69994,0.933731,19.1941
94,520.054,0.0047338,0.0223351,681.126,520.054,0.128154,8.60733,0.846845,8003.0,6.44668,0.143366,11329,35512.4,0.020762,1.25962,0.465223,2.69986,0.926552,18.9984
95,517.153,0.00474537,0.0227647,678.232,517.153,0.128596,8.61471,0.846849,8003.0,6.43697,0.142275,12010.1,37652.3,0.0210622,1.33524,0.464402,2.70005,0.922614,18.969
96,514.666,0.00478009,0.0232232,675.415,514.666,0.132013,8.61471,0.846862,8003.0,6.46807,0.143195,12688.3,39784,0.0207882,1.41053,0.463486,2.699929,0.918782,18.8818
97,512.026,0.00478009,0.0232529,673.392,512.026,0.129755,8.61839,0.846862,8003.0,6.46388,0.142839,13363.7,41907.1,0.0215832,1.4855,0.463308,2.70005,0.91603,18.9069
98,509.35,0.00482639,0.0240489,669.907,509.35,0.130974,8.64746,0.846878,8003.0,6.519,0.145169,14037.1,44023,0.0197785,1.5602,0.462072,2.69993,0.91129,18.6679
99,506.891,0.00478009,0.0231085,667.987,506.891,0.128875,8.62936,0.846862,8003.0,6.44738,0.14184,14707,46129.4,0.0229973,1.63453,0.463564,2.70013,0.908678,18.8148
100,504.633,0.00484954,0.0239803,665.183,504.633,0.127971,8.64024,0.846886,8003.0,6.51955,0.144259,15375,48228.8,0.0205903,1.7086,0.461988,2.70017,0.904864,18.5708
101,502.18,0.00483796,0.0236232,663.179,502.18,0.129068,8.61839,0.846882,8003.0,6.50492,0.143353,16040.2,50320.9,0.021786,1.78237,0.463994,2.69993,0.902137,18.5821
102,499.295,0.00489583,0.0240589,659.638,499.295,0.128539,8.68299,0.846902,8003.0,6.51939,0.141891,16703.4,52405.6,0.0208835,1.85587,0.462232,2.69989,0.89732,18.4364
103,497.653,0.00487268,0.0235182,658.371,497.653,0.127773,8.66888,0.846894,8003.0,6.52728,0.143499,17363,54481.3,0.0240903,1.92901,0.46304,2.69989,0.895597,18.4828
104,494.983,0.00488425,0.0232557,655.855,494.983,0.129861,8.67243,0.846898,8003.0,6.5026,0.140805,18021.4,56551.2,0.0217848,2.00195,0.464562,2.70017,0.892174,18.4719
105,491.921,0.00496528,0.0239941,651.969,491.921,0.127667,8.65464,0.846925,8003.0,6.58472,0.143584,18677.2,58613.2,0.022487,2.0746,0.462118,2.69977,0.886889,18.1228
106,490.261,0.00493055,0.0236247,650.977,490.261,0.127839,8.6865,0.846914,8003.0,6.57876,0.144834,19329.2,60665.8,0.0240903,2.14685,0.461685,2.70013,0.885539,18.242
107,487.791,0.00494212,0.023484,648.729,487.791,0.128076,8.69,0.846918,8003.0,6.56592,0.142914,19980.2,62713.5,0.0222855,2.21893,0.463284,2.70005,0.882481,18.2237
108,485.142,0.00503472,0.0238203,645.093,485.142,0.127682,8.72451,0.846948,8003.0,6.65136,0.145104,20628.9,64753.6,0.0234895,2.29074,0.462236,2.70013,0.877535,17.8893
109,479.763,0.0050463,0.0229653,638.181,479.763,0.127973,8.71425,0.846952,8003.0,6.62477,0.142064,21274,66784.5,0.0253945,2.36218,0.464796,2.70046,0.868132,17.8245
110,478.333,0.00504629,0.0228234,637.748,478.333,0.129619,8.72451,0.846952,8003.0,6.64276,0.143671,21912.2,68794.6,0.02698,2.43287,0.462726,2.6999,0.867543,17.9039
111,474.428,0.00504629,0.0220674,635.898,474.428,0.13077,8.69,0.846951,8003.0,6.60025,0.139971,22549.9,70802.5,0.0235705,2.50346,0.465475,2.70026,0.865027,17.8721
112,473.835,0.00510417,0.0226293,632.342,473.835,0.130286,8.70736,0.84697,8003.0,6.67026,0.14259,23185.8,72804.4,0.0239722,2.57373,0.463926,2.70002,0.860189,17.6307
113,472.368,0.00505786,0.0220188,631.715,472.368,0.128,8.72792,0.846955,8003.0,6.62032,0.141012,23818.2,74797.9,0.0260775,2.64374,0.464707,2.69982,0.859336,17.8472
114,469.697,0.00504629,0.0217732,629.66,469.697,0.129995,8.67596,0.846952,8003.0,6.61573,0.141217,24449.9,76787.8,0.0239722,2.71363,0.464314,2.70006,0.856541,17.8404
115,467.046,0.00513889,0.0218897,626.662,467.046,0.128565,8.71768,0.846981,8003.0,6.67887,0.141597,25079.6,78770.8,0.024473,2.78326,0.463747,2.69982,0.852463,17.5586
116,465.791,0.00508102,0.0216781,625.668,465.791,0.130975,8.69697,0.846963,8003.0,6.63671,0.140998,25706.2,80746.1,0.027682,2.85258,0.464894,2.69993,0.85111,17.7345
117,463.124,0.00506944,0.0215226,623.803,463.124,0.128925,8.71081,0.846959,8003.0,6.64337,0.142097,26331.9,82716.8,0.0268023,2.92176,0.46468,2.69997,0.848573,17.7513
118,460.851,0.00505786,0.0213635,621.863,460.851,0.127783,8.69697,0.846955,8003.0,6.61825,0.140688,26955.7,84680.2,0.026502,2.99069,0.465209,2.69981,0.845934,17.7919
119,458.196,0.00516204,0.0214298,618.447,458.196,0.12909,8.73132,0.846988,8003.0,6.69093,0.141018,27577.5,86637,0.0277047,3.05938,0.465776,2.70013,0.841288,17.4801
120,456.122,0.00504629,0.0207536,617.397,456.122,0.126848,8.71081,0.846951,8003.0,6.59631,0.139454,28196,88585.6,0.0309128,3.12772,0.466111,2.69985,0.839859,17.8009
121,452.423,0.00506944,0.0205243,613.829,452.423,0.12851,8.71425,0.846959,8003.0,6.61148,0.139291,28813.4,90528.2,0.0284068,3.19589,0.467147,2.70013,0.835005,17.7512
122,447.666,0.00512731,0.0206938,608.925,447.666,0.130601,8.73132,0.846977,8003.0,6.64374,0.138825,29427.2,92459.2,0.0286918,3.26363,0.467193,2.70009,0.828334,17.5591
123,445.62,0.00509259,0.0207647,607.56,445.62,0.127428,8.7039,0.846966,8003.0,6.6414,0.140687,30036.1,94376,0.03202,3.33083,0.465262,2.70013,0.826477,17.71
124,443.344,0.00523148,0.0208718,604.451,443.344,0.12767,8.73809,0.847009,8003.0,6.71481,0.139103,30643.7,96286.6,0.0299137,3.39783,0.467136,2.69977,0.822249,17.2333
125,442.742,0.00510416,0.0204133,604.359,442.742,0.127046,8.70736,0.84697,8003.0,6.62388,0.138406,31248.2,98193,0.0336128,3.46453,0.467591,2.70009,0.822124,17.6386
126,440.68,0.00509259,0.0204548,602.505,440.68,0.128758,8.74147,0.846966,8003.0,6.6274,0.139446,31852.5,100095,0.030003,3.53118,0.466764,2.70025,0.819602,17.6865
127,437.188,0.00525463,0.0205572,599.499,437.188,0.130693,8.73471,0.847015,8003.0,6.71819,0.13827,32455,101990,0.0304035,3.5976,0.467688,2.69989,0.815512,17.1651
128,437.798,0.00512731,0.0203843,599.627,437.798,0.130361,8.73471,0.846977,8003.0,6.65941,0.140026,33054.5,103881,0.0346153,3.66369,0.466627,2.69989,0.815686,17.6138
129,435.745,0.00508101,0.0201612,597.947,435.745,0.130269,8.69697,0.846963,8003.0,6.60042,0.137532,33654.1,105767,0.031306,3.72976,0.468498,2.70001,0.813401,17.7031
130,433.492,0.00515046,0.0200979,595.618,433.492,0.130419,8.74147,0.846984,8003.0,6.65857,0.138782,34252.1,107647,0.0321083,3.79564,0.467199,2.70005,0.810233,17.5114
131,431.43,0.00508101,0.0196129,594.161,431.43,0.129793,8.69697,0.846963,8003.0,6.59235,0.13703,34847.7,109521,0.0347155,3.86127,0.468282,2.70009,0.80825,17.7266
132,429.785,0.00511573,0.0201096,592.288,429.785,0.128013,8.7039,0.846973,8003.0,6.65161,0.139962,35441.9,111388,0.0327103,3.92669,0.466766,2.70013,0.805703,17.6614
133,426.482,0.00524306,0.0202375,589.338,426.482,0.129434,8.75154,0.847012,8003.0,6.72106,0.138803,36034.2,113249,0.0330107,3.99189,0.467848,2.70033,0.80169,17.2563
134,426.081,0.00509259,0.0199239,588.849,426.081,0.126633,8.70044,0.846966,8003.0,6.61465,0.138179,36623.5,115105,0.0386195,4.05677,0.467942,2.70001,0.801025,17.655
135,424.226,0.00509259,0.0197887,587.163,424.226,0.128323,8.7211,0.846966,8003.0,6.62355,0.138962,37212.3,116956,0.0344078,4.12157,0.466568,2.69981,0.798731,17.6865
136,420.957,0.00524306,0.0201477,584.888,420.957,0.127991,8.73471,0.847012,8003.0,6.71963,0.138857,37799.5,118800,0.0354115,4.18618,0.467202,2.70001,0.795636,17.1953
137,421.567,0.00512731,0.0200422,584.616,421.567,0.127587,8.71081,0.846977,8003.0,6.66332,0.140265,38384.4,120643,0.0391202,4.25051,0.466764,2.70017,0.795266,17.5747
138,419.729,0.00509258,0.019576,582.997,419.729,0.128821,8.7039,0.846966,8003.0,6.6105,0.137711,38969,122480,0.03511,4.31482,0.468567,2.70001,0.793064,17.655
139,419.111,0.0053125,0.0204997,582.471,419.111,0.128909,8.74483,0.847032,8003.0,6.74906,0.137963,39552,124311,0.0353103,4.37893,0.466598,2.70026,0.792349,17.0463
140,419.737,0.00513888,0.0203238,582.67,419.737,0.128546,8.70044,0.84698,8003.0,6.65397,0.139037,40134.5,126152,0.0395053,4.44303,0.466575,2.699939,0.792619,17.5119
141,418.103,0.00515046,0.0201838,581.125,418.103,0.126028,8.73132,0.846984,8003.0,6.66152,0.139017,40717.2,127985,0.0343922,4.50713,0.466496,2.6999,0.790517,17.5658
142,413.787,0.00527778,0.0201496,578.701,413.787,0.128804,8.73809,0.847022,8003.0,6.72539,0.137767,41298.3,129812,0.0351948,4.57104,0.467024,2.69998,0.78722,17.0672
143,415.433,0.00512731,0.0201593,580.268,415.433,0.128343,8.74147,0.846977,8003.0,6.64137,0.138606,41877,131640,0.0404077,4.63465,0.467123,2.69986,0.789352,17.5748
144,413.789,0.00513888,0.0202379,577.609,413.789,0.127727,8.73132,0.846981,8003.0,6.65954,0.139215,42457.2,133464,0.0289778,4.69835,0.467902,2.69974,0.785735,17.5275
145,411.916,0.00512731,0.0199516,575.997,411.916,0.128887,8.7211,0.846977,8003.0,6.65219,0.139339,43034.9,135279,0.0359957,4.76181,0.467655,2.70002,0.783541,17.5592
146,409.665,0.00519676,0.0200145,574.076,409.665,0.128501,8.71768,0.846998,8003.0,6.67464,0.137664,43610.9,137087,0.0359957,4.82508,0.467846,2.699939,0.780929,17.3635
147,408.631,0.00511573,0.0198825,573.083,408.631,0.128057,8.7211,0.846973,8003.0,6.64347,0.139299,44184.9,138893,0.0411097,4.88813,0.466999,2.699939,0.779577,17.5988
148,407.199,0.00510416,0.019693,571.562,407.199,0.130403,8.71081,0.84697,8003.0,6.6129,0.137376,44758,140691,0.0369982,4.95105,0.468177,2.69986,0.777509,17.6701
149,404.116,0.00521991,0.0199436,569.865,404.116,0.128996,8.73809,0.847005,8003.0,6.69786,0.138478,45329.6,142484,0.0382023,5.01378,0.466765,2.70014,0.775201,17.302
150,404.314,0.00510416,0.0195796,569.313,404.314,0.131043,8.71768,0.84697,8003.0,6.61762,0.13767,45899.4,144275,0.043115,5.07631,0.468112,2.699939,0.77445,17.6308
151,403.086,0.00511573,0.0199735,567.869,403.086,0.127945,8.7039,0.846973,8003.0,6.64059,0.139123,46468.8,146060,0.039305,5.13876,0.466844,2.70014,0.772486,17.6379
152,399.606,0.00523148,0.0198072,566.462,399.606,0.128561,8.73809,0.847008,8003.0,6.68686,0.136897,47036.6,147839,0.039305,5.20104,0.468053,2.70014,0.770571,17.2562
153,400.622,0.00511573,0.0199769,565.857,400.622,0.129282,8.71081,0.846973,8003.0,6.64162,0.139132,47603.1,149620,0.0436155,5.26312,0.467257,2.7001,0.769749,17.591